File: data/processed_data/standardized_selected_features_data_concrete.csv
Cement (component 1)(kg in a m^3 mixture),Blast Furnace Slag (component 2)(kg in a m^3 mixture),Fly Ash (component 3)(kg in a m^3 mixture),Water (component 4)(kg in a m^3 mixture),Superplasticizer (component 5)(kg in a m^3 mixture),Coarse Aggregate (component 6)(kg in a m^3 mixture),Fine Aggregate (component 7)(kg in a m^3 mixture),Age (day),"Concrete compressive strength(MPa, megapascals)"
2.62098,-0.850159,-0.915228,-0.997971,-0.722978,1.01872,-1.43915,-0.148807,1.61676
-0.0811471,0.470898,-0.915228,2.69205,-1.19284,-0.557437,-1.52257,-0.148807,0.657122
-0.74583,0.684121,-0.915228,0.679312,-1.19284,0.037144,0.639479,-0.148807,-0.410225
0.2936,0.0305455,-0.915228,2.69205,-1.19284,-0.557437,-1.52257,-0.148807,0.774404
-1.32767,1.57641,-0.915228,0.679312,-1.19284,0.916201,0.380867,2.03451,0.268298
-1.32767,1.57641,-0.915228,0.679312,-1.19284,0.916201,0.380867,-1.02918,-1.6048
0.737379,-0.850159,-0.915228,0.679312,-1.19284,0.916201,0.380867,-1.02918,-1.18668
-1.32767,1.57641,-0.915228,0.679312,-1.19284,0.916201,0.380867,-0.888319,-1.2142
-0.74583,0.684121,-0.915228,0.679312,-1.19284,0.037144,0.639479,-1.02918,-1.54088
-0.830641,1.3516,-0.915228,2.69205,-1.19284,-0.557437,-1.52257,-0.148807,0.358014
0.983923,1.34233,-0.915228,-0.545105,0.705399,-0.633041,-0.317108,-1.02918,-0.0285815
1.48687,0.381668,-0.915228,-1.4732,1.90824,-1.58129,1.49596,-1.02918,-0.0884195
1.97996,0.526521,-0.915228,0.0698989,0.479866,-1.58129,0.0277087,-1.02918,0.174868
1.12791,0.275057,-0.915228,-1.2272,1.08129,-1.58129,2.03265,-1.02918,-0.405768
0.439554,1.61234,-0.915228,-1.3502,1.49477,-1.58129,1.4028,-1.02918,-0.579092
0.871499,1.34001,-0.915228,-0.835834,0.987316,-0.394696,-0.329621,-1.02918,0.0254792
1.03816,0.901979,-0.915228,-1.45084,1.79548,2.03488,-2.42633,-1.02918,-0.375642
0.119047,1.47791,-0.915228,-1.9652,0.912138,0.372877,0.336375,-1.02918,-0.626962
1.62494,1.20096,-0.915228,0.343855,0.893343,-1.16099,-0.995617,-1.02918,0.264832
0.871499,1.34001,-0.915228,-0.835834,0.987316,-0.394696,-0.329621,-1.02918,0.0254792
0.983923,1.34233,-0.915228,-0.545105,0.705399,-0.633041,-0.317108,-0.888319,0.677921
1.48687,0.381668,-0.915228,-1.4732,1.90824,-1.58129,1.49596,-0.888319,0.857435
1.97996,0.526521,-0.915228,0.0698989,0.479866,-1.58129,0.0277087,-0.888319,1.2404
1.12791,0.275057,-0.915228,-1.2272,1.08129,-1.58129,2.03265,-0.888319,0.00154392
0.439554,1.61234,-0.915228,-1.3502,1.49477,-1.58129,1.4028,-0.888319,-0.0884195
0.871499,1.34001,-0.915228,-0.835834,0.987316,-0.394696,-0.329621,-0.888319,1.25814
1.03816,0.901979,-0.915228,-1.45084,1.79548,2.03488,-2.42633,-0.888319,0.731569
0.119047,1.47791,-0.915228,-1.9652,0.912138,0.372877,0.336375,-0.888319,0.186836
1.62494,1.20096,-0.915228,0.343855,0.893343,-1.16099,-0.995617,-0.888319,1.27011
0.871499,1.34001,-0.915228,-0.835834,0.987316,-0.394696,-0.329621,-0.888319,-0.716926
0.983923,1.34233,-0.915228,-0.545105,0.705399,-0.633041,-0.317108,-0.148807,1.5693
1.48687,0.381668,-0.915228,-1.4732,1.90824,-1.58129,1.49596,-0.148807,1.52143
1.97996,0.526521,-0.915228,0.0698989,0.479866,-1.58129,0.0277087,-0.148807,2.00055
1.12791,0.275057,-0.915228,-1.2272,1.08129,-1.58129,2.03265,-0.148807,0.946986
0.439554,1.61234,-0.915228,-1.3502,1.49477,-1.58129,1.4028,-0.148807,1.23421
0.871499,1.34001,-0.915228,-0.835834,0.987316,-0.394696,-0.329621,-0.148807,2.18006
1.03816,0.901979,-0.915228,-1.45084,1.79548,2.03488,-2.42633,-0.148807,1.03695
0.119047,1.47791,-0.915228,-1.9652,0.912138,0.372877,0.336375,-0.148807,1.96465
1.62494,1.20096,-0.915228,0.343855,0.893343,-1.16099,-0.995617,-0.148807,1.86271
0.871499,1.34001,-0.915228,-0.835834,0.987316,-0.394696,-0.329621,-0.148807,2.18006
0.983923,1.34233,-0.915228,-0.545105,0.705399,-0.633041,-0.317108,0.837208,1.70714
1.48687,0.381668,-0.915228,-1.4732,1.90824,-1.58129,1.49596,0.837208,1.7612
1.97996,0.526521,-0.915228,0.0698989,0.479866,-1.58129,0.0277087,0.837208,2.2399
1.12791,0.275057,-0.915228,-1.2272,1.08129,-1.58129,2.03265,0.837208,1.21646
0.439554,1.61234,-0.915228,-1.3502,1.49477,-1.58129,1.4028,0.837208,1.8689
0.871499,1.34001,-0.915228,-0.835834,0.987316,-0.394696,-0.329621,0.837208,2.53909
0.871499,1.34001,-0.915228,-0.835834,0.987316,-0.394696,-0.329621,0.837208,2.53909
0.871499,1.34001,-0.915228,-0.835834,0.987316,-0.394696,-0.329621,0.837208,2.53909
1.14073,1.34001,-0.915228,-1.89811,2.94194,-0.394696,-0.329621,0.837208,2.66496
0.627914,1.34001,-0.915228,-0.27674,0.592633,-0.394696,-0.329621,0.837208,1.4975
0.385314,2.18827,-0.915228,-0.243194,0.423483,0.91492,-2.33178,2.06973,1.89862
1.48687,0.381668,-0.915228,-1.59061,2.30293,-0.50618,0.336375,2.06973,1.90481
1.48687,0.381668,-0.915228,-1.4732,1.90824,-1.58129,1.49596,2.06973,1.81484
1.48687,0.381668,-0.915228,-1.4732,1.90824,-1.58129,1.49596,2.06973,1.81484
1.25808,0.247245,-0.915228,-1.81425,0.949727,-0.367786,1.00932,2.06973,2.43138
1.03816,0.901979,-0.915228,-1.45084,1.79548,2.03488,-2.42633,2.06973,1.29405
0.119047,1.47791,-0.915228,-1.9652,0.912138,0.372877,0.336375,2.06973,2.50938
1.62494,1.20096,-0.915228,0.343855,0.893343,-1.16099,-0.995617,2.06973,2.29974
0.627914,1.34001,-0.915228,-0.27674,0.592633,-0.394696,-0.329621,2.06973,1.97042
-0.511514,-0.850159,0.58541,0.527797,-0.354607,-0.107913,1.26265,-0.641815,-0.624074
-0.511514,-0.850159,0.58541,0.527797,-0.354607,-0.107913,1.26265,0.837208,-0.324883
-0.398597,-0.850159,0.552966,1.00862,-0.334497,-0.364711,1.01016,-1.02918,-1.46593
-0.398597,-0.850159,0.552966,1.00862,-0.334497,-0.364711,1.01016,-0.148807,-0.72064
-0.398597,-0.850159,0.552966,1.00862,-0.334497,-0.364711,1.01016,2.38666,-0.0190899
-0.784488,-0.850159,0.645175,-0.795579,0.212985,0.395943,1.75735,-0.641815,-0.591885
-0.784488,-0.850159,0.645175,-0.795579,0.212985,0.395943,1.75735,0.837208,-0.0545801
-0.823935,-0.850159,1.03139,-0.990144,0.267489,1.46721,0.340685,-1.02918,-1.18696
-0.823935,-0.850159,1.03139,-0.990144,0.267489,1.46721,0.340685,-0.148807,-0.507286
-0.823935,-0.850159,1.03139,-0.990144,0.267489,1.46721,0.340685,2.38666,0.340764
-0.612992,-0.850159,0.972717,0.0257304,-0.123435,1.05203,-0.0026018,-0.641815,-0.835364
-0.612992,-0.850159,0.972717,0.0257304,-0.123435,1.05203,-0.0026018,0.837208,-0.0401364
-0.436466,-0.850159,0.921334,0.873318,-0.322656,0.69067,-0.290829,-1.02918,-1.48698
-0.436466,-0.850159,0.921334,0.873318,-0.322656,0.69067,-0.290829,-0.148807,-0.62201
-0.436466,-0.850159,0.921334,0.873318,-0.322656,0.69067,-0.290829,2.38666,0.0279552
-0.827288,-0.850159,1.02798,-1.00636,0.664051,1.44287,0.320941,-0.641815,-0.727655
-0.827288,-0.850159,1.02798,-1.00636,0.664051,1.44287,0.320941,0.837208,0.220675
-1.06644,-0.850159,1.61926,-0.189521,-0.348969,1.06485,0.00810419,-1.02918,-1.44324
-1.06644,-0.850159,1.61926,-0.189521,-0.348969,1.06485,0.00810419,-0.148807,-0.798223
-1.06644,-0.850159,1.61926,-0.189521,-0.348969,1.06485,0.00810419,2.38666,-0.0797533
-0.59672,0.286066,-0.534752,0.104004,0.0964595,1.15711,0.0816557,-0.641815,-0.268759
-0.59672,0.286066,-0.534752,0.104004,0.0964595,1.15711,0.0816557,0.837208,0.951525
-0.596326,0.286181,-0.534597,0.105681,0.0569912,1.15967,0.0836023,-1.02918,-1.29839
-0.596326,0.286181,-0.534597,0.105681,0.0569912,1.15967,0.0836023,-0.148807,0.320543
-0.596326,0.286181,-0.534597,0.105681,0.0569912,1.15967,0.0836023,2.38666,0.903655
-0.439326,-0.850159,0.919006,0.859899,-0.0407399,0.674012,-0.304177,-0.641815,-0.751591
-0.439326,-0.850159,0.919006,0.859899,-0.0407399,0.674012,-0.304177,0.837208,-0.210984
-0.356783,-0.850159,0.54567,0.380755,0.122772,-0.327934,0.938552,-1.02918,-0.894377
-0.356783,-0.850159,0.54567,0.380755,0.122772,-0.327934,0.938552,-0.148807,-0.277838
-0.356783,-0.850159,0.54567,0.380755,0.122772,-0.327934,0.938552,2.38666,0.564022
-0.238935,-0.850159,0.570197,0.423247,-0.153506,-0.238875,1.13543,-0.641815,-0.596012
-0.238935,-0.850159,0.570197,0.423247,-0.153506,-0.238875,1.13543,0.837208,0.206644
-0.608554,-0.850159,0.642846,-1.14781,0.444157,0.413883,1.72523,-1.02918,-1.27693
-0.608554,-0.850159,0.642846,-1.14781,0.444157,0.413883,1.72523,-0.148807,-0.193652
-0.608554,-0.850159,0.642846,-1.14781,0.444157,0.413883,1.72523,2.38666,0.481487
-0.608061,-0.850159,0.643157,-1.14613,0.756144,0.362626,1.72801,-0.641815,-0.568775
-0.608061,-0.850159,0.643157,-1.14613,0.756144,0.362626,1.72801,0.837208,0.569799
-0.613682,-0.850159,1.02177,-1.1657,0.280645,1.40827,0.278535,-1.02918,-0.919137
-0.613682,-0.850159,1.02177,-1.1657,0.280645,1.40827,0.278535,-0.148807,0.216961
-0.613682,-0.850159,1.02177,-1.1657,0.280645,1.40827,0.278535,2.38666,0.774487
-0.418912,-0.850159,0.972717,-0.329295,0.0701473,1.03665,-0.0146982,-0.641815,-0.485002
-0.418912,-0.850159,0.972717,-0.329295,0.0701473,1.03665,-0.0146982,0.837208,0.468281
-0.225425,-0.850159,0.920713,0.480833,-0.112159,0.677856,-0.302787,-1.02918,-1.05656
-0.225425,-0.850159,0.920713,0.480833,-0.112159,0.677856,-0.302787,-0.148807,-0.312503
-0.225425,-0.850159,0.920713,0.480833,-0.112159,0.677856,-0.302787,2.38666,0.521104
-0.225425,-0.850159,0.920713,0.480833,0.000607876,0.677856,-0.302787,-0.641815,-0.625312
-0.225425,-0.850159,0.920713,0.480833,0.000607876,0.677856,-0.302787,0.837208,0.105538
-0.915649,-0.850159,1.67732,-0.573619,0.228021,1.0264,-0.0237357,-1.02918,-1.27198
-0.915649,-0.850159,1.67732,-0.573619,0.228021,1.0264,-0.0237357,-0.148807,-0.425164
-0.915649,-0.850159,1.67732,-0.573619,0.228021,1.0264,-0.0237357,2.38666,0.627987
-0.909141,-0.326256,0.97815,-0.538955,0.346425,1.0751,0.0158904,-0.641815,-0.800286
-0.909141,-0.326256,0.97815,-0.538955,0.346425,1.0751,0.0158904,0.837208,0.516151
-1.03892,-0.360904,1.01354,-1.20316,0.842598,1.34932,0.2314,-1.02918,-1.64462
-1.03892,-0.360904,1.01354,-1.20316,0.842598,1.34932,0.2314,-0.148807,-0.225015
-1.03892,-0.360904,1.01354,-1.20316,0.842598,1.34932,0.2314,2.38666,0.794708
0.158987,-0.850159,0.577804,-0.658042,0.575718,-0.183517,1.18868,-0.641815,-0.0120744
0.158987,-0.850159,0.577804,-0.658042,0.575718,-0.183517,1.18868,0.837208,0.611067
0.0278254,-0.850159,0.596587,-1.07624,1.03054,-0.0205201,1.3362,-1.02918,-0.702482
0.0278254,-0.850159,0.596587,-1.07624,1.03054,-0.0205201,1.3362,-0.148807,0.802549
0.0278254,-0.850159,0.596587,-1.07624,1.03054,-0.0205201,1.3362,2.38666,1.24287
0.211846,-0.850159,0.569421,-0.464595,0.474228,-0.260915,1.10804,-0.641815,0.0213524
0.211846,-0.850159,0.569421,-0.464595,0.474228,-0.260915,1.10804,0.837208,0.828548
-0.221085,-0.850159,0.636171,-1.8847,1.12827,0.390817,1.67198,-1.02918,-0.829174
-0.221085,-0.850159,0.636171,-1.8847,1.12827,0.390817,1.67198,-0.148807,-0.0558181
-0.221085,-0.850159,0.636171,-1.8847,1.12827,0.390817,1.67198,2.38666,0.627987
-0.247811,-0.850159,0.617699,-1.21546,1.21285,0.157085,1.52251,-0.641815,-0.37069
-0.247811,-0.850159,0.617699,-1.21546,1.21285,0.157085,1.52251,0.837208,0.428251
-0.216155,-0.850159,0.617699,-1.87855,1.47033,0.157085,1.52251,-1.02918,-0.783779
-0.216155,-0.850159,0.617699,-1.87855,1.47033,0.157085,1.52251,-0.148807,0.941208
-0.216155,-0.850159,0.617699,-1.87855,1.47033,0.157085,1.52251,2.38666,1.56064
-0.270197,-0.850159,1.02643,-2.04348,1.06061,1.42621,0.297305,-0.641815,0.439394
-0.270197,-0.850159,1.02643,-2.04348,1.06061,1.42621,0.297305,0.837208,1.52308
0.00829911,-0.850159,0.968525,-1.13886,0.66781,1.00078,-0.0279069,-1.02918,-0.662865
0.00829911,-0.850159,0.968525,-1.13886,0.66781,1.00078,-0.0279069,-0.148807,0.984952
0.00829911,-0.850159,0.968525,-1.13886,0.66781,1.00078,-0.0279069,2.38666,1.42033
0.226145,-0.850159,0.909381,-0.282331,0.596391,0.606096,-0.362295,-0.641815,0.126585
0.226145,-0.850159,0.909381,-0.282331,0.596391,0.606096,-0.362295,0.837208,1.02251
-0.596523,-0.850159,1.79731,-1.40108,0.716676,0.999494,-0.0438963,-1.02918,-1.03551
-0.596523,-0.850159,1.79731,-1.40108,0.716676,0.999494,-0.0438963,-0.148807,0.315591
-0.596523,-0.850159,1.79731,-1.40108,0.716676,0.999494,-0.0438963,2.38666,0.909845
-0.59889,-0.850159,1.78955,-1.41114,0.998592,0.984117,-0.0559927,-0.641815,-0.0702618
-0.59889,-0.850159,1.78955,-1.41114,0.998592,0.984117,-0.0559927,0.837208,0.991142
0.029206,0.2834,-0.535528,-1.07065,0.910258,1.10457,0.0410564,-1.02918,-0.265045
0.029206,0.2834,-0.535528,-1.07065,0.910258,1.10457,0.0410564,-0.148807,1.69187
0.029206,0.2834,-0.535528,-1.07065,0.910258,1.10457,0.0410564,2.38666,1.91966
-0.552243,-0.216979,1.00625,-2.18605,1.04558,1.28397,0.183015,-0.641815,0.0646834
-0.552243,-0.216979,1.00625,-2.18605,1.04558,1.28397,0.183015,0.837208,1.62295
-0.585083,-0.226713,0.976908,-1.35411,0.613306,0.497175,0.0149171,-1.02918,-1.0091
-0.585083,-0.226713,0.976908,-1.35411,0.613306,0.497175,0.0149171,-0.148807,1.03695
-0.585083,-0.226713,0.976908,-1.35411,0.613306,0.497175,0.0149171,2.38666,1.3023
-0.546129,-0.850159,1.01168,-1.19421,0.936571,1.32241,0.21416,-0.641815,-0.528333
-0.546129,-0.850159,1.01168,-1.19421,0.936571,1.32241,0.21416,0.837208,0.143092
1.00365,-0.850159,-0.915228,1.94287,-1.19284,0.358782,-0.238412,-1.02918,-1.1131
1.00365,-0.850159,-0.915228,1.94287,-1.19284,0.358782,-0.238412,-0.148807,-0.173844
1.00365,-0.850159,-0.915228,1.94287,-1.19284,0.358782,-0.238412,2.38666,0.48974
1.97996,-0.850159,0.000647084,-2.11616,-0.835744,1.56973,-1.92579,-0.148807,1.33779
1.74328,-0.850159,-0.915228,-0.830243,0.921535,0.698359,-0.479783,-0.148807,2.62905
2.42374,-0.850159,-0.915228,-0.550696,-0.215528,-1.54413,1.04964,-0.148807,1.52061
2.42374,-0.850159,-0.915228,-0.271149,-0.215528,-1.35192,0.35445,-0.148807,0.966381
2.22749,-0.850159,-0.915228,1.12659,-0.629006,1.90802,-2.31231,-0.148807,0.554118
1.21074,-0.650842,1.53745,-0.718424,2.7164,-0.108938,-2.03702,-0.148807,1.24329
0.589453,-0.646206,1.53745,0.511583,1.68271,-0.108938,-2.03702,-0.148807,0.565673
-0.732023,1.46748,-0.915228,0.567493,-1.19284,2.172,-1.66161,-0.148807,0.860324
-1.27442,0.494074,0.932045,0.232036,-0.121556,-1.82605,1.39724,-0.148807,-0.342216
-0.396723,0.957603,-0.915228,0.511583,-0.0933643,0.070461,-0.271225,-0.148807,0.264832
1.97996,-0.850159,-0.915228,-0.997971,0.592633,0.877758,-1.6338,-0.148807,1.41537
0.806412,0.528839,-0.915228,-1.10979,0.504299,1.0956,-1.70332,-0.148807,1.44385
2.22651,-0.850159,-0.915228,-1.61298,0.49866,0.736802,-1.73113,-0.148807,2.09258
-1.07719,0.638927,1.1354,-0.267794,0.325752,0.388254,-0.457537,-1.02918,-0.925327
-1.05401,0.65515,1.08138,-0.24543,0.271248,0.394661,-0.457537,-1.02918,-1.19315
-0.992966,-0.270169,1.77853,-0.843102,0.0231612,0.39338,0.194555,-1.02918,-0.706196
-0.990303,0.231833,1.56695,-0.419868,0.63586,0.406194,-0.457537,-1.02918,-1.14074
-0.238935,-0.850159,0.570197,0.670366,-0.191095,-0.340876,1.08023,-1.02918,-1.57942
-0.784488,-0.850159,0.645175,-0.541191,0.212985,0.288303,1.70035,-1.02918,-1.35864
-1.07719,-0.849927,1.31345,-0.896775,-1.19284,0.385691,1.68783,-0.641815,-1.07719
-0.948686,0.653991,0.925836,0.00504393,-0.521877,0.407476,-0.454756,-0.641815,-0.038073
-1.00441,-0.692443,1.76052,-1.29094,-0.414749,0.394661,1.06911,-0.641815,-0.306725
-1.05746,0.0235925,1.67716,-0.884475,0.293801,0.407476,-0.130796,-0.641815,-0.118132
-0.827288,-0.850159,1.02798,-0.740229,0.664051,1.32626,0.269636,-0.641815,-0.925327
-0.59889,-0.850159,1.78955,-1.15396,0.998592,0.872633,-0.105769,-0.641815,-0.316217
-0.225425,-0.850159,0.920713,0.731867,-0.112159,0.872633,-0.350477,-0.641815,-0.846919
-1.07719,0.638927,1.1354,-0.267794,0.325752,0.388254,-0.457537,-0.148807,0.689063
-1.05401,0.65515,1.08138,-0.24543,0.271248,0.394661,-0.457537,-0.148807,0.37873
-0.992966,-0.270169,1.77853,-0.843102,0.0231612,0.39338,0.194555,-0.148807,0.199216
-0.990303,0.231833,1.56695,-0.419868,0.63586,0.406194,-0.457537,-0.148807,0.175693
-0.238935,-0.850159,0.570197,0.670366,-0.191095,-0.340876,1.08023,-0.148807,-0.458178
-0.784488,-0.850159,0.645175,-0.541191,0.212985,0.288303,1.70035,-0.148807,0.143092
-1.07719,-0.849927,1.31345,-0.896775,-1.19284,0.385691,1.68783,0.837208,0.100999
-0.948686,0.653991,0.925836,0.00504393,-0.521877,0.407476,-0.454756,0.837208,0.820707
-1.00441,-0.692443,1.76052,-1.29094,-0.414749,0.394661,1.06911,0.837208,0.0584933
-1.05746,0.0235925,1.67716,-0.884475,0.293801,0.407476,-0.130796,0.837208,1.11247
-0.827288,-0.850159,1.02798,-0.740229,0.664051,1.32626,0.269636,0.837208,-0.189113
-0.59889,-0.850159,1.78955,-1.15396,0.998592,0.872633,-0.105769,0.837208,0.980412
-0.225425,-0.850159,0.920713,0.731867,-0.112159,0.872633,-0.350477,0.837208,0.262768
-1.07719,0.638927,1.1354,-0.267794,0.325752,0.388254,-0.457537,2.38666,1.20573
-1.05401,0.65515,1.08138,-0.24543,0.271248,0.394661,-0.457537,2.38666,1.12402
-0.992966,-0.270169,1.77853,-0.843102,0.0231612,0.39338,0.194555,2.38666,1.26805
-0.990303,0.231833,1.56695,-0.419868,0.63586,0.406194,-0.457537,2.38666,0.961429
-0.238935,-0.850159,0.570197,0.670366,-0.191095,-0.340876,1.08023,2.38666,0.376254
-0.784488,-0.850159,0.645175,-0.541191,0.212985,0.288303,1.70035,2.38666,0.562784
1.69397,-0.572042,0.311113,-0.997971,0.989195,-0.108938,-0.938611,-0.148807,1.32582
1.69397,-0.572042,0.311113,-0.997971,0.994833,-0.108938,-0.938611,-0.148807,0.966381
1.69397,-0.572042,0.311113,-0.997971,0.989195,-0.108938,-0.938611,-1.02918,0.0291932
1.69397,-0.572042,0.311113,-0.997971,0.994833,-0.108938,-0.938611,-1.02918,-0.690102
1.69397,-0.572042,0.311113,-0.997971,0.994833,-0.108938,-0.938611,-0.888319,0.188074
1.69397,-0.572042,0.311113,-0.997971,0.989195,-0.108938,-0.938611,0.837208,1.56765
1.69397,-0.572042,0.311113,-0.997971,0.994833,-0.108938,-0.938611,0.837208,1.21976
1.11213,-0.618395,0.543963,-1.27752,1.49852,-0.480551,0.910605,-0.148807,0.919336
1.11213,-0.618395,0.543963,-1.27752,0.989195,-0.480551,0.910605,-0.148807,0.706808
1.11213,-0.618395,0.543963,-1.27752,1.42523,-0.480551,0.910605,-1.02918,-0.560521
1.11213,-0.618395,0.543963,-1.27752,1.49852,-0.480551,0.910605,-0.888319,0.117506
1.11213,-0.618395,0.543963,-1.27752,0.989195,-0.480551,0.910605,-0.888319,0.40638
1.11213,-0.618395,0.543963,-1.27752,1.42523,-0.480551,0.910605,0.837208,0.783566
0.79655,-0.629983,0.590533,-1.94843,1.27487,-0.108938,1.27211,-0.148807,0.547928
2.13775,-0.548865,0.994139,1.68568,-0.454217,-1.19815,-1.11936,-0.148807,1.23751
2.13775,-0.548865,0.994139,1.68568,-0.454217,-1.19815,-1.11936,-1.02918,-0.554626
2.13775,-0.548865,0.994139,1.68568,-0.454217,-1.19815,-1.11936,0.837208,1.47928
2.13775,-0.548865,0.994139,1.1825,-0.454217,-1.967,-1.11936,-0.888319,0.182296
1.47701,-0.595218,1.13385,-0.10342,0.400929,-1.967,-0.410264,-0.148807,1.62666
1.47701,-0.595218,1.13385,-0.662515,0.483625,-1.967,-0.410264,-0.148807,2.22793
1.47701,-0.595218,1.13385,-0.10342,0.400929,-1.967,-0.410264,0.837208,1.84479
1.47701,-0.595218,1.13385,-0.662515,0.483625,-1.967,-0.410264,-0.888319,0.323785
-0.7123,-0.722688,1.27356,1.46204,-0.869574,-0.429294,0.298834,-0.148807,-0.772637
-0.7123,-0.722688,1.27356,1.46204,-0.869574,-0.429294,0.298834,-0.888319,-1.18543
0.0963646,-0.676336,1.27356,-0.0475109,-0.166663,-1.71072,0.298834,-0.148807,0.530182
0.0963646,-0.676336,1.27356,-0.0475109,-0.166663,-1.71072,0.298834,-0.888319,-0.643057
0.835997,-0.629983,1.27356,-1.44525,0.857634,-0.429294,0.298834,-0.148807,1.67949
0.835997,-0.629983,1.27356,-1.44525,0.857634,-0.429294,0.298834,-1.02918,-0.584103
0.835997,-0.629983,1.27356,-1.44525,0.857634,-0.429294,0.298834,-0.888319,0.0525979
0.835997,-0.629983,1.27356,-1.44525,0.857634,-0.429294,0.298834,0.837208,2.02755
1.59535,-0.850159,-0.915228,2.13296,-1.19284,-1.75685,-0.831551,-0.148807,-0.659976
0.145673,-0.850159,-0.915228,0.679312,-1.19284,-0.798345,1.60997,-1.02918,-1.38984
1.1713,-0.850159,-0.915228,0.679312,-1.19284,-0.447234,0.0847146,2.03451,0.836223
2.02927,-0.850159,-0.915228,0.679312,-1.19284,-0.503617,-0.93583,-0.148807,0.542687
2.02927,-0.850159,-0.915228,0.679312,-1.19284,-0.503617,-0.93583,2.03451,1.16356
0.579591,-0.850159,-0.915228,0.679312,-1.19284,-0.567688,0.877236,-1.02918,-1.15275
-0.189626,-0.850159,-0.915228,0.679312,-1.19284,-1.0982,2.30099,-0.888319,-1.47559
-0.189626,-0.850159,-0.915228,0.679312,-1.19284,-1.0982,2.30099,-0.148807,-0.965398
0.579591,-0.850159,-0.915228,0.679312,-1.19284,-0.567688,0.877236,-0.888319,-0.686553
0.579591,-0.850159,-0.915228,0.679312,-1.19284,-0.567688,0.877236,2.03451,0.407287
-0.189626,-0.850159,-0.915228,0.679312,-1.19284,-1.0982,2.30099,-1.02918,-1.59638
-0.355304,0.99005,-0.915228,0.327082,-1.19284,0.83419,-0.628554,-0.888319,-1.14826
-0.796125,2.51274,-0.915228,0.327082,-1.19284,0.290866,-1.04567,-0.148807,-0.134598
-0.0140871,1.25774,-0.915228,0.327082,-1.19284,0.472828,-0.906632,-0.888319,-0.904405
1.21074,-0.850159,-0.915228,0.327082,-1.19284,0.83419,-0.628554,-0.148807,-0.10732
-0.626503,2.81288,-0.915228,0.327082,-1.19284,0.0192041,-1.25423,-0.888319,-0.781427
0.212733,-0.850159,-0.915228,0.327082,-1.19284,1.48515,-0.141919,-0.888319,-1.19897
-0.697507,0.722362,-0.915228,0.327082,-1.19284,1.29038,-0.280957,-0.888319,-1.37172
1.0569,-0.850159,-0.915228,0.327082,-1.19284,1.6543,0.0666395,-0.148807,-0.741356
-0.455894,3.11417,-0.915228,0.327082,-1.19284,-0.252458,-1.46279,-0.148807,0.288725
0.412927,1.59148,-0.915228,0.327082,-1.19284,0.0192041,-1.25423,-0.148807,0.228929
-0.35629,-0.850159,-0.915228,0.327082,-1.19284,1.83626,0.136159,-0.148807,-1.03543
-1.36613,1.50804,-0.915228,0.327082,-1.19284,1.29038,-0.280957,-0.148807,-0.998165
-0.697507,0.722362,-0.915228,0.327082,-1.19284,1.29038,-0.280957,-0.148807,-0.732938
-0.910521,2.31111,-0.915228,0.327082,-1.19284,0.472828,-0.906632,-0.888319,-1.34688
-0.626503,2.81288,-0.915228,0.327082,-1.19284,0.0192041,-1.25423,-0.148807,0.175858
0.157508,1.39216,-0.915228,0.327082,-1.19284,0.290866,-1.04567,-0.148807,-0.109672
-0.355304,0.99005,-0.915228,0.327082,-1.19284,0.83419,-0.628554,-0.148807,-0.476542
0.640734,-0.850159,-0.915228,0.327082,-1.19284,1.20068,-0.350477,-0.148807,-0.178094
-0.214281,-0.850159,-0.915228,0.327082,-1.19284,1.744,0.0666395,-0.148807,-0.904405
-0.214281,-0.850159,-0.915228,0.327082,-1.19284,1.744,0.0666395,-0.888319,-1.40007
-0.868116,0.587939,-0.915228,0.327082,-1.19284,1.38264,-0.211438,-0.148807,-1.03419
-0.0140871,1.25774,-0.915228,0.327082,-1.19284,0.472828,-0.906632,-0.148807,-0.209127
0.638762,-0.850159,-0.915228,0.958859,-1.19284,-0.0961241,0.0207567,-0.888319,-0.832475
0.638762,-0.850159,-0.915228,0.958859,-1.19284,-0.0961241,0.0207567,-0.148807,-0.169717
-0.377,-0.850159,-0.915228,0.791131,-1.19284,-0.0961241,1.46676,-1.02918,-1.70033
-0.377,-0.850159,-0.915228,0.791131,-1.19284,-0.0961241,1.46676,-0.148807,-0.985165
0.0273323,-0.850159,-0.915228,0.623402,-1.19284,-0.0961241,1.06355,-0.641815,-0.81473
0.0273323,-0.850159,-0.915228,0.623402,-1.19284,-0.0961241,1.06355,-1.02918,-1.40733
-0.199488,-0.850159,-0.915228,1.01477,-1.19284,-0.0961241,1.16087,-1.02918,-1.53031
0.323185,-0.850159,-0.915228,0.735221,-1.19284,-0.0961241,0.451777,-1.02918,-1.33677
0.323185,-0.850159,-0.915228,0.735221,-1.19284,-0.0961241,0.451777,2.03451,-0.116894
-0.732023,-0.850159,-0.915228,0.00839849,-1.19284,1.91571,0.910605,-0.888319,-1.61821
-0.485479,-0.850159,-0.915228,0.0643079,-1.19284,1.76194,0.743758,-0.888319,-1.41889
0.500697,-0.850159,-0.915228,0.232036,-1.19284,1.12123,0.0485645,-0.888319,-1.03758
0.00760879,-0.850159,-0.915228,0.176127,-1.19284,1.44159,0.396161,-0.888319,-1.23731
0.254153,-0.850159,-0.915228,0.232036,-1.19284,1.275,0.215411,-0.888319,-1.15519
0.993785,-0.850159,-0.915228,0.343855,-1.19284,0.800873,-0.299033,-0.888319,-0.527507
1.24033,-0.850159,-0.915228,0.399765,-1.19284,0.634288,-0.479783,-0.148807,0.528119
-0.238935,-0.850159,-0.915228,0.120217,-1.19284,1.59536,0.563008,-0.888319,-1.32521
0.747241,-0.850159,-0.915228,0.343855,-1.19284,0.954644,-0.132186,-0.888319,-0.873743
-0.697507,2.68772,-0.915228,1.32227,-1.19284,-0.15507,-2.07873,-0.888319,-0.91794
-1.15608,1.88466,-0.915228,0.679312,-1.19284,-0.513868,0.0235375,2.03451,0.508847
-1.05943,2.04921,-0.915228,1.32227,-1.19284,0.00126413,-1.20835,-1.02918,-1.67429
-0.890798,0.570556,-0.915228,1.32227,-1.19284,-0.208889,0.28493,-1.02918,-1.79393
-1.69848,0.922838,-0.915228,0.679312,-1.19284,-1.13408,2.25928,2.03451,-0.563493
-1.05943,2.04921,-0.915228,1.32227,-1.19284,0.00126413,-1.20835,-0.148807,-0.0555292
-1.63635,1.03177,-0.915228,1.32227,-1.19284,-0.477989,0.966221,-0.148807,-0.854801
-1.63635,1.03177,-0.915228,1.32227,-1.19284,-0.477989,0.966221,2.03451,-0.3378
-1.31091,1.60654,-0.915228,1.32227,-1.19284,-0.04743,-0.431119,-0.888319,-1.46531
-1.39276,1.46748,-0.915228,0.679312,-1.19284,-0.616382,0.829963,-0.148807,-0.419015
-0.998291,0.494074,-0.915228,0.679312,-1.19284,-0.367786,1.07467,-0.888319,-1.40556
-0.810918,2.48725,-0.915228,0.679312,-1.19284,-0.585628,-0.881605,-0.148807,0.266111
0.135812,1.37478,-0.915228,0.679312,-1.19284,-0.557437,-0.857968,-1.02918,-1.12321
-0.377,0.969191,-0.915228,0.679312,-1.19284,-0.0371786,-0.422777,-0.888319,-0.865448
-0.613682,0.787256,-0.915228,1.32227,-1.19284,-0.0269272,-0.410264,-0.888319,-1.18779
-0.890798,0.570556,-0.915228,1.32227,-1.19284,-0.208889,0.28493,2.03451,-0.14021
-1.69848,0.922838,-0.915228,0.679312,-1.19284,-1.13408,2.25928,-0.888319,-1.62799
-0.613682,0.787256,-0.915228,1.32227,-1.19284,-0.0269272,-0.410264,-0.148807,-0.112025
-0.998291,0.494074,-0.915228,0.679312,-1.19284,-0.367786,1.07467,-0.148807,-0.63406
-1.39276,1.46748,-0.915228,0.679312,-1.19284,-0.616382,0.829963,2.03451,0.102526
-1.39276,1.46748,-0.915228,0.679312,-1.19284,-0.616382,0.829963,-0.888319,-1.26958
-0.377,0.969191,-0.915228,0.679312,-1.19284,-0.0371786,-0.422777,2.03451,0.772506
-1.15608,1.88466,-0.915228,0.679312,-1.19284,-0.513868,0.0235375,-0.888319,-1.07653
-0.613682,0.787256,-0.915228,1.32227,-1.19284,-0.0269272,-0.410264,-1.02918,-1.67991
-1.19553,0.331839,-0.915228,0.679312,-1.19284,-1.12126,2.27458,-0.148807,-1.0122
-1.56041,1.1546,-0.915228,0.679312,-1.19284,-0.841913,1.5627,-0.148807,-0.749816
-1.63635,1.03177,-0.915228,1.32227,-1.19284,-0.477989,0.966221,-0.888319,-1.62514
-0.697507,2.68772,-0.915228,1.32227,-1.19284,-0.15507,-2.07873,-1.02918,-1.51512
0.135812,1.37478,-0.915228,0.679312,-1.19284,-0.557437,-0.857968,2.03451,0.936793
-0.732023,0.691074,-0.915228,0.679312,-1.19284,-0.129441,0.371134,-0.148807,-0.265499
-1.49532,1.28091,-0.915228,1.32227,-1.19284,-0.221704,0.286321,-1.02918,-1.88872
-0.732023,0.691074,-0.915228,0.679312,-1.19284,-0.129441,0.371134,2.03451,0.501295
-0.998291,0.494074,-0.915228,0.679312,-1.19284,-0.367786,1.07467,2.03451,-0.165961
0.30642,1.50804,-0.915228,1.32227,-1.19284,-0.129441,-2.06483,2.03451,1.18052
-1.15608,1.88466,-0.915228,0.679312,-1.19284,-0.513868,0.0235375,-1.02918,-1.50716
-1.31091,1.60654,-0.915228,1.32227,-1.19284,-0.04743,-0.431119,2.03451,0.286497
-1.31091,1.60654,-0.915228,1.32227,-1.19284,-0.04743,-0.431119,-1.02918,-1.79847
-1.05943,2.04921,-0.915228,1.32227,-1.19284,0.00126413,-1.20835,2.03451,0.520113
0.35277,-0.850159,-0.915228,0.679312,-1.19284,0.467703,0.702047,-1.02918,-1.37803
0.35277,-0.850159,-0.915228,0.679312,-1.19284,0.467703,0.702047,-0.148807,-0.421862
0.35277,-0.850159,-0.915228,0.679312,-1.19284,0.467703,0.702047,3.09096,0.228929
0.559867,-0.850159,-0.915228,0.679312,-1.19284,0.634288,0.576912,-0.888319,-1.04377
0.559867,-0.850159,-0.915228,0.679312,-1.19284,0.634288,0.576912,2.03451,0.181884
0.737379,-0.850159,-0.915228,0.679312,-1.19284,1.03153,0.410065,-1.02918,-1.13744
0.737379,-0.850159,-0.915228,0.679312,-1.19284,1.03153,0.410065,-0.148807,-0.0760393
0.737379,-0.850159,-0.915228,0.679312,-1.19284,1.03153,0.410065,3.09096,0.358096
-0.357276,-0.850159,-0.915228,0.343855,-1.19284,1.83883,0.131988,-0.148807,-1.03758
0.214706,-0.850159,-0.915228,0.343855,-1.19284,1.46721,-0.14609,-0.148807,-0.58033
2.02927,-0.850159,-0.915228,0.679312,-1.19284,-0.50618,-0.813476,-0.148807,0.539674
1.21074,-0.850159,-0.915228,0.343855,-1.19284,0.826501,-0.632726,-0.148807,0.123283
0.0667794,-0.850159,-0.915228,0.287946,-1.19284,1.64661,-0.0765704,-0.148807,-0.744575
2.22651,-0.850159,-0.915228,1.12659,-1.19284,1.91571,-2.3151,-1.02918,-0.527507
2.22651,-0.850159,-0.915228,1.12659,-1.19284,1.91571,-2.3151,-0.641815,0.123283
2.62098,-0.850159,-0.915228,-0.382968,-1.19284,1.91571,-2.3151,-0.888319,1.06171
2.62098,-0.850159,-0.915228,-0.382968,-1.19284,1.91571,-2.3151,-0.148807,1.94112
0.747241,-0.850159,-0.915228,1.29432,-1.19284,-0.0192387,-0.0626666,-0.888319,-1.0025
0.747241,-0.850159,-0.915228,1.29432,-1.19284,-0.0192387,-0.0626666,-0.148807,-0.451162
0.747241,-0.850159,-0.915228,1.29432,-1.19284,-0.0192387,-0.0626666,2.03451,-0.210984
1.0924,-0.850159,-0.915228,0.343855,-1.19284,-0.121753,-0.229513,-1.02918,-1.2076
1.0924,-0.850159,-0.915228,0.343855,-1.19284,-0.121753,-0.229513,-0.641815,-0.416085
0.737379,-0.850159,-0.915228,0.679312,-1.19284,0.916201,0.368354,-1.02918,-1.19027
1.06282,-0.850159,-0.915228,0.343855,-1.19284,0.916201,-0.563206,-0.888319,-0.650898
1.06282,-0.850159,-0.915228,0.343855,-1.19284,1.73631,0.0624684,-0.888319,-1.40114
0.638762,-0.850159,-0.915228,0.287946,-1.19284,1.19811,-0.354648,-0.888319,-0.82092
0.204844,-0.850159,-0.915228,0.287946,-1.19284,1.19811,-0.14609,-0.888319,-1.20182
-0.357276,-0.850159,-0.915228,0.287946,-1.19284,1.82601,0.131988,-0.148807,-1.03758
0.214706,-0.850159,-0.915228,0.679312,-1.19284,1.40314,-0.201705,-0.148807,-0.79162
0.559867,-0.850159,-0.915228,0.679312,-1.19284,-1.23659,0.632527,-1.02918,-1.27817
0.559867,-0.850159,-0.915228,0.679312,-1.19284,0.0320183,0.632527,-0.148807,-0.205207
0.737379,-0.850159,-0.915228,0.679312,-1.19284,0.916201,0.368354,-0.888319,-1.0025
0.737379,-0.850159,-0.915228,0.679312,-1.19284,0.916201,0.368354,2.03451,0.275974
2.22651,-0.850159,-0.915228,1.12659,-1.19284,1.91571,-2.3151,2.03451,0.738997
-0.219212,-0.850159,-0.915228,0.287946,-1.19284,1.73631,0.0624684,-0.888319,-1.26661
0.638762,-0.850159,-0.915228,0.287946,-1.19284,1.08279,-0.354648,-0.148807,-0.193239
1.1713,-0.850159,-0.915228,0.679312,-1.19284,-0.454923,-0.299033,-0.148807,0.281751
1.06282,-0.850159,-0.915228,0.287946,-1.19284,0.916201,-0.563206,-0.888319,-0.650898
-0.219212,-0.850159,-0.915228,0.343855,-1.19284,1.73631,0.0624684,-0.888319,-1.40114
0.35277,-0.850159,-0.915228,0.679312,-1.19284,-0.0704956,0.980124,-0.888319,-1.19027
0.35277,-0.850159,-0.915228,0.679312,-1.19284,-0.0704956,0.980124,2.03451,-0.0116617
2.47305,-0.850159,-0.915228,0.511583,-1.19284,1.91571,-2.3151,-0.888319,0.451774
2.47305,-0.850159,-0.915228,0.511583,-1.19284,1.91571,-2.3151,-0.148807,1.26103
0.471112,-0.850159,-0.915228,1.29432,-1.19284,-0.0192387,0.28493,-0.641815,-0.84403
0.273876,-0.850159,-0.915228,1.29432,-1.19284,-0.0192387,0.521296,-0.148807,-0.78543
2.02927,-0.850159,-0.915228,0.679312,-1.19284,-0.50618,-0.813476,-1.02918,-0.627375
2.44346,-0.850159,-0.915228,-1.89252,-1.19284,-1.01875,1.6197,-0.148807,2.40084
-1.10677,1.3516,1.38222,-0.0475109,2.3781,-1.76198,-0.535398,-0.148807,-0.0669604
-1.2547,0.482486,0.466346,1.23841,0.49866,-1.48006,0.688143,-0.148807,-0.891075
0.35277,0.806956,0.807859,-0.662515,2.94194,-0.788093,-1.78675,-0.148807,-0.0710871
0.2936,0.772191,-0.915228,1.90932,-0.0651726,-1.03156,-0.799572,-0.148807,-0.0871815
-1.13636,0.876485,0.885476,-0.271149,1.62633,-0.288338,-0.82738,-0.148807,-0.430941
0.35277,0.806956,-0.915228,-0.662515,0.686605,-0.788093,0.340546,-0.148807,0.62386
-1.21525,-0.850159,1.94106,-0.718424,1.06249,0.198603,-0.104378,-0.148807,-1.1556
0.234429,0.737426,0.745766,1.1825,-0.0651726,-1.24941,-1.73113,-0.148807,1.11618
0.905029,1.31684,-0.915228,0.623402,0.122772,-1.94138,-0.312936,-0.148807,1.85735
-0.219212,0.273898,0.264543,0.791131,0.310716,-1.80042,0.576912,-0.148807,-0.0884195
-1.16594,1.96578,-0.915228,0.00839849,0.874549,0.595845,-1.13327,-0.148807,0.148869
0.234429,-0.850159,0.745766,0.343855,-0.0651726,-1.23659,0.493489,-0.148807,0.464567
0.12595,0.552015,0.543963,0.455674,0.49866,-0.916236,-1.16107,-0.148807,0.422887
0.806412,-0.850159,1.28908,0.735221,0.874549,-2.2361,-0.0209549,-0.148807,0.358509
0.471112,0.876485,-0.915228,0.343855,0.310716,-0.313966,-0.980323,-0.148807,1.05015
0.392218,-0.850159,0.838906,-0.550696,0.686605,-0.647137,0.0485645,-0.148807,0.214485
0.135812,0.552015,-0.915228,-0.15933,0.122772,-0.864979,0.688143,-0.148807,0.434442
-0.0910088,0.436133,0.419776,0.84704,-0.0651726,-1.82605,0.145892,-0.148807,0.398951
-1.06732,2.16278,-0.915228,0.176127,1.25044,-1.49288,0.660335,-0.148807,0.181884
0.471112,-0.850159,0.885476,0.90295,0.686605,-2.01826,0.465681,-0.148807,-0.221301
-1.13636,1.31684,-0.915228,-0.215239,0.874549,0.185789,0.131988,-0.148807,-0.126386
0.382356,-0.850159,0.838906,-0.10342,0.310716,0.33956,-1.2584,-0.148807,0.115443
-1.26456,1.81513,-0.915228,1.23841,-0.629006,-1.90293,1.28601,-0.148807,-0.108641
-1.39276,1.58337,-0.915228,0.90295,-0.629006,-0.339595,0.215411,-0.148807,-0.23038
-1.20539,-0.850159,0.823382,0.232036,0.310716,0.211418,0.507393,-0.148807,-1.35864
-1.32373,0.691074,0.683673,1.12659,0.122772,-0.762465,-0.368552,-0.148807,0.0935708
0.254153,-0.850159,0.947569,1.7975,0.686605,-1.24941,-0.716149,-0.148807,-0.660802
-1.24484,-0.850159,1.21147,-1.22161,1.81427,0.33956,0.702047,-0.148807,-1.01281
-1.19553,0.830132,-0.915228,-0.10342,0.310716,0.313932,0.590816,-0.148807,-0.949675
-1.14622,-0.850159,2.11182,2.24478,0.874549,-0.993121,-0.924707,-0.148807,-1.57653
-0.0121147,-0.850159,0.48187,1.07068,0.874549,-0.570251,-0.243417,-0.148807,-0.157749
-1.29414,1.10825,1.3046,0.623402,0.310716,-0.108938,-1.89798,-0.148807,-0.308376
0.382356,1.01554,-0.915228,-0.10342,0.686605,-0.749651,-0.285129,-0.148807,1.05139
0.609176,-0.850159,-0.915228,0.120217,-0.629006,0.134532,0.521296,-0.148807,0.597861
-1.22511,1.89625,-0.915228,-0.327058,1.06249,1.19811,-1.45305,-0.148807,0.152996
0.559867,1.11984,-0.915228,0.84704,0.310716,-2.10796,0.312738,-0.148807,1.30106
-1.1758,1.27048,-0.915228,0.735221,0.49866,-1.26222,1.23039,-0.148807,-0.663691
-0.0811471,0.447721,0.4353,-0.10342,0.686605,-0.83935,-0.479783,-0.148807,0.271847
0.382356,0.830132,-0.915228,-2.9548,0.310716,0.313932,0.590816,-0.148807,0.577228
-1.28428,0.725838,0.730242,-0.10342,0.122772,-0.442109,-0.0765704,-0.148807,-0.522555
0.0273323,0.505662,0.497393,0.623402,0.122772,-0.378037,-1.57819,-0.148807,0.520691
0.382356,0.830132,-0.915228,-0.10342,0.310716,0.33956,-1.2584,-0.148807,0.369651
0.145673,0.702662,-0.915228,0.84704,-0.0651726,-0.659951,-0.271225,-0.148807,0.680397
-1.27442,-0.850159,1.86344,1.23841,0.310716,-1.94138,1.2443,-0.148807,-1.45685
-1.36318,1.02713,1.04071,-0.438877,0.686605,-0.672765,-0.215609,-0.148807,-0.34758
-0.189626,0.297074,0.280067,0.511583,-0.0651726,-0.724022,-0.424167,-0.148807,-0.0644843
-1.36318,1.42113,0.606056,1.07068,-0.0651726,-1.64665,0.0485645,-0.148807,-0.473447
-1.10677,1.62972,1.63059,1.23841,0.686605,-1.99263,-1.38354,-0.148807,-0.253077
-1.23497,0.922838,2.09629,0.679312,0.310716,-0.518994,-2.17606,-0.148807,-0.616233
-1.13636,1.57178,1.58402,1.1825,0.122772,-1.63383,-1.53648,-0.148807,-0.239046
-1.18566,1.16619,1.95658,2.69205,0.122772,-1.67228,-2.329,-0.148807,-0.630676
-0.889812,0.146428,2.0342,1.85341,-0.0651726,-0.672765,-2.17606,-0.148807,-0.714862
0.385314,-0.850159,0.838906,-0.0754657,0.310716,0.338279,-1.26257,-0.148807,0.115484
-1.26554,1.82092,-0.915228,1.26636,-0.553828,-1.90293,1.28323,-0.148807,-0.128986
-1.39178,1.58568,-0.915228,0.886177,-0.610211,-0.334469,0.219582,-0.148807,-0.35538
-1.20933,-0.850159,0.82183,0.2544,0.291922,0.211418,0.506002,-0.148807,-1.35835
-1.32472,0.686438,0.68833,1.14336,0.197949,-0.762465,-0.36299,-0.148807,0.0938596
0.25218,-0.850159,0.944464,1.76955,0.66781,-1.24684,-0.72171,-0.148807,-0.660761
-1.24385,-0.850159,1.20526,-1.21602,1.83307,0.336997,0.703437,-0.148807,-1.01248
-1.19848,0.826656,-0.915228,-0.0978294,0.310716,0.310087,0.593597,-0.148807,-0.949634
-1.14227,-0.850159,2.11026,2.228,0.874549,-0.996965,-0.926097,-0.148807,-1.57649
-0.0160594,-0.850159,0.47566,1.05391,0.799371,-0.566407,-0.240636,-0.148807,-0.157419
-1.29414,1.11288,1.29995,0.60663,0.385894,-0.103813,-1.89103,-0.148807,-0.308211
0.38137,1.00975,-0.915228,-0.125784,0.611427,-0.754776,-0.278177,-0.148807,1.05168
0.614107,-0.850159,-0.915228,0.114626,-0.553828,0.131969,0.518516,-0.148807,0.598109
-1.22511,1.89393,-0.915228,-0.33824,1.0437,1.20196,-1.45584,-0.148807,0.152996
0.554937,1.1152,-0.915228,0.841449,0.32951,-2.10796,0.316909,-0.148807,1.30143
-1.17778,1.27512,-0.915228,0.751994,0.517455,-1.25966,1.22622,-0.148807,-0.663691
-0.0791747,0.451198,0.443061,-0.109011,0.761782,-0.843195,-0.486735,-0.148807,0.272095
0.379397,0.826656,-0.915228,-2.93803,0.310716,0.310087,0.593597,-0.148807,0.577475
-1.28625,0.729315,0.733347,-0.0978294,0.216744,-0.435702,-0.0723993,-0.148807,-0.52239
0.0273323,0.503345,0.497393,0.601039,0.122772,-0.37163,-1.58375,-0.148807,0.520897
0.385314,0.830132,-0.915228,-0.0754657,0.310716,0.338279,-1.26257,-0.148807,0.369775
0.145673,0.699185,-0.915228,0.841449,-0.159145,-0.658669,-0.269834,-0.148807,0.680644
-1.27048,-0.850159,1.86189,1.22163,0.273127,-1.94138,1.24013,-0.148807,-1.45681
-1.35923,1.0225,1.0376,-0.461241,0.761782,-0.677891,-0.210048,-0.148807,-0.347291
-0.186668,0.294757,0.280067,0.48922,0.0287995,-0.724022,-0.419996,-0.148807,-0.064443
-1.10677,1.35276,1.38377,-0.0586928,2.34051,-1.76069,-0.529837,-0.148807,-0.0666302
-1.25963,0.477851,0.471003,1.23282,0.461071,-1.48006,0.695095,-0.148807,-0.891075
0.351784,0.804638,0.810964,-0.673697,2.96073,-0.789375,-1.78397,-0.148807,0.199917
0.289655,0.771032,-0.915228,1.88136,-0.0275838,-1.02516,-0.79262,-0.148807,-0.0871403
-1.1403,0.875326,0.885476,-0.265558,1.62633,-0.284493,-0.831551,-0.148807,-0.430611
0.35277,0.804638,-0.915228,-0.668106,0.686605,-0.784249,0.340546,-0.148807,0.624231
-1.21624,-0.850159,1.93951,-0.740788,0.987316,0.201166,-0.101597,-0.148807,-1.15552
0.232457,0.739744,0.744213,1.19927,-0.0651726,-1.24428,-1.72696,-0.148807,1.11622
0.905029,1.31684,-0.915228,0.640175,0.047594,-1.93753,-0.314327,-0.148807,1.85747
-0.218226,0.275057,0.258334,0.779949,0.367099,-1.79401,0.582473,-0.148807,-0.088337
-1.16989,1.97157,-0.915228,0.0251713,0.818166,0.595845,-1.13744,-0.148807,0.148911
0.235416,-0.850159,0.745766,0.366219,-0.0463782,-1.23659,0.496269,-0.148807,0.46498
0.128908,0.546221,0.54241,0.43331,0.536249,-0.91111,-1.16246,-0.148807,0.534062
0.805425,-0.850159,1.28287,0.751994,0.874549,-2.23098,-0.0153934,-0.148807,0.358715
0.476043,0.87185,-0.915228,0.332673,0.404688,-0.313966,-0.973371,-0.148807,1.05048
0.390245,-0.850159,0.832696,-0.556287,0.705399,-0.643292,0.0471741,-0.148807,0.214609
0.139756,0.552015,-0.915228,-0.136966,0.122772,-0.86626,0.695095,-0.148807,0.434813
-0.0959397,0.436133,0.427538,0.874995,-0.0839671,-1.83117,0.151453,-0.148807,0.399034
-1.06732,2.1593,-0.915228,0.187309,1.19405,-1.49544,0.657554,-0.148807,0.182049
0.473084,-0.850159,0.879266,0.90295,0.761782,-2.01954,0.471242,-0.148807,-0.22126
-1.13537,1.31336,-0.915228,-0.237603,0.930932,0.180664,0.130597,-0.148807,-0.126138
-0.131442,0.314457,0.300247,1.16013,0.423483,-1.4224,-0.250369,-0.148807,-0.148093